high.thisTrialN,high.stepSize,high.intensity,medium.thisTrialN,medium.stepSize,medium.intensity,low.thisTrialN,low.stepSize,low.intensity,time.onset,time.trial,true_trialN,TR,trialtype,cue,jitter,low.response,hit,target_ms,rewardType,total_earned,time.end.global,time.end.nominal,time.trial.total,medium.response,rt,high.response,Subject ID,fMRI? (yes/no),Task number (1/2/practice),Show instructions? (yes/no),date,expName,frameRate,
-1,4,None,-1,4,None,0,4,8.1,12.008372917000088,0.013100125001074048,1,-6,6,-$5 (20% accuracy),,,,,,,,,,,,,XXX000,no,practice,no,2023-06-29_21h53.25.151,MID,None,
-1,4,None,-1,4,None,0,4,8.1,12.008372917000088,2.0041307079991384,1,-6,6,-$5 (20% accuracy),0.026822620352306488,,,,,,,,,,,,XXX000,no,practice,no,2023-06-29_21h53.25.151,MID,None,
-1,4,None,-1,4,None,0,4,8.1,12.008372917000088,4.000567999999475,1,-6,6,-$5 (20% accuracy),,0,0,0.265,-$5,-5,,,,,,,XXX000,no,practice,no,2023-06-29_21h53.25.151,MID,None,
-1,4,None,-1,4,None,0,4,8.1,12.008372917000088,6.018388749998849,1,-6,6,-$5 (20% accuracy),,,,,,,,,,,,,XXX000,no,practice,no,2023-06-29_21h53.25.151,MID,None,
-1,4,None,-1,4,None,0,4,8.1,12.008372917000088,8.00070116599818,1,-6,6,-$5 (20% accuracy),,,,,,,,,,,,,XXX000,no,practice,no,2023-06-29_21h53.25.151,MID,None,
-1,4,None,-1,4,None,0,4,8.1,12.008372917000088,9.98602154100081,1,-6,6,-$5 (20% accuracy),,,,,,,23.99471962499956,24.00482083300085,11.973936541999137,,,,XXX000,no,practice,no,2023-06-29_21h53.25.151,MID,None,
-1,4,None,0,4,8.1,0,4,8.1,23.99548570800107,0.0075536249969445635,2,-1,2,+$5 (50% accuracy),,,,,,,,,,,,,XXX000,no,practice,no,2023-06-29_21h53.25.151,MID,None,
-1,4,None,0,4,8.1,0,4,8.1,23.99548570800107,1.9960567919988534,2,-1,2,+$5 (50% accuracy),0.0029018045658346816,,,,,,,,,,,,XXX000,no,practice,no,2023-06-29_21h53.25.151,MID,None,
-1,4,None,0,4,8.1,0,4,8.1,23.99548570800107,3.9860308339993935,2,-1,2,+$5 (50% accuracy),,,1,0.265,+$5,0,,,,1,0.2711612079983752,,XXX000,no,practice,no,2023-06-29_21h53.25.151,MID,None,
-1,4,None,0,4,8.1,0,4,8.1,23.99548570800107,5.998195124997437,2,-1,2,+$5 (50% accuracy),,,,,,,,,,,,,XXX000,no,practice,no,2023-06-29_21h53.25.151,MID,None,
-1,4,None,0,4,8.1,0,4,8.1,23.99548570800107,7.9821391249970475,2,-1,2,+$5 (50% accuracy),,,,,,,,,,,,,XXX000,no,practice,no,2023-06-29_21h53.25.151,MID,None,
-1,4,None,0,4,8.1,0,4,8.1,23.99548570800107,9.999320999999327,2,-1,2,+$5 (50% accuracy),,,,,,,35.993507708000834,36.00482083300085,11.99096258300051,,,,XXX000,no,practice,no,2023-06-29_21h53.25.151,MID,None,
0,4,8.1,0,4,8.1,0,4,8.1,35.99421570800041,0.005283874997985549,3,-1,7,$0 (80% accuracy),,,,,,,,,,,,,XXX000,no,practice,no,2023-06-29_21h53.25.151,MID,None,
0,4,8.1,0,4,8.1,0,4,8.1,35.99421570800041,1.999335542001063,3,-1,7,$0 (80% accuracy),0.011363725885588094,,,,,,,,,,,,XXX000,no,practice,no,2023-06-29_21h53.25.151,MID,None,
0,4,8.1,0,4,8.1,0,4,8.1,35.99421570800041,3.9974373750010272,3,-1,7,$0 (80% accuracy),,,1,0.265,$0,0,,,,,0.26019695899958606,1,XXX000,no,practice,no,2023-06-29_21h53.25.151,MID,None,
0,4,8.1,0,4,8.1,0,4,8.1,35.99421570800041,6.017856624999695,3,-1,7,$0 (80% accuracy),,,,,,,,,,,,,XXX000,no,practice,no,2023-06-29_21h53.25.151,MID,None,
0,4,8.1,0,4,8.1,0,4,8.1,35.99421570800041,8.000178709000465,3,-1,7,$0 (80% accuracy),,,,,,,45.99602283299828,46.00482083300085,9.99701704099789,,,,XXX000,no,practice,no,2023-06-29_21h53.25.151,MID,None,
1,4,6.983433000772875,0,4,8.1,0,4,8.1,45.996780541998305,0.0052468750000116415,4,-1,1,+$5 (80% accuracy),,,,,,,,,,,,,XXX000,no,practice,no,2023-06-29_21h53.25.151,MID,None,
1,4,6.983433000772875,0,4,8.1,0,4,8.1,45.996780541998305,1.999113916001079,4,-1,1,+$5 (80% accuracy),0.00021253657039132514,,,,,,,,,,,,XXX000,no,practice,no,2023-06-29_21h53.25.151,MID,None,
1,4,6.983433000772875,0,4,8.1,0,4,8.1,45.996780541998305,3.9913515410007676,4,-1,1,+$5 (80% accuracy),,,0,0.24639055001288124,$0,0,,,,,,0,XXX000,no,practice,no,2023-06-29_21h53.25.151,MID,None,
1,4,6.983433000772875,0,4,8.1,0,4,8.1,45.996780541998305,5.994984125001793,4,-1,1,+$5 (80% accuracy),,,,,,,,,,,,,XXX000,no,practice,no,2023-06-29_21h53.25.151,MID,None,
1,4,6.983433000772875,0,4,8.1,0,4,8.1,45.996780541998305,7.9949472500011325,4,-1,1,+$5 (80% accuracy),,,,,,,55.99396991699905,56.00482083300085,9.992454250001174,,,,XXX000,no,practice,no,2023-06-29_21h53.25.151,MID,None,
2,4,7.676222329239526,0,4,8.1,0,4,8.1,55.99467899999945,0.004241375001583947,5,-1,4,-$5 (80% accuracy),,,,,,,,,,,,,XXX000,no,practice,no,2023-06-29_21h53.25.151,MID,None,
2,4,7.676222329239526,0,4,8.1,0,4,8.1,55.99467899999945,1.9976694169999973,5,-1,4,-$5 (80% accuracy),0.03425533139609461,,,,,,,,,,,,XXX000,no,practice,no,2023-06-29_21h53.25.151,MID,None,
2,4,7.676222329239526,0,4,8.1,0,4,8.1,55.99467899999945,3.99682812500032,5,-1,4,-$5 (80% accuracy),,,0,0.25793703882065877,-$5,-5,,,,,,0,XXX000,no,practice,no,2023-06-29_21h53.25.151,MID,None,
2,4,7.676222329239526,0,4,8.1,0,4,8.1,55.99467899999945,6.000595124998654,5,-1,4,-$5 (80% accuracy),,,,,,,,,,,,,XXX000,no,practice,no,2023-06-29_21h53.25.151,MID,None,
2,4,7.676222329239526,0,4,8.1,0,4,8.1,55.99467899999945,7.996182375001808,5,-1,4,-$5 (80% accuracy),,,,,,,,,,,,,XXX000,no,practice,no,2023-06-29_21h53.25.151,MID,None,
2,4,7.676222329239526,0,4,8.1,0,4,8.1,55.99467899999945,9.998688791998575,5,-1,4,-$5 (80% accuracy),,,,,,,67.99323441700108,68.00482083300085,11.994784624999738,,,,XXX000,no,practice,no,2023-06-29_21h53.25.151,MID,None,
2,4,7.676222329239526,0,4,8.1,1,4,9.214291069328032,67.99386245799906,0.005622917000437155,6,-1,3,+$5 (20% accuracy),,,,,,,,,,,,,XXX000,no,practice,no,2023-06-29_21h53.25.151,MID,None,
2,4,7.676222329239526,0,4,8.1,1,4,9.214291069328032,67.99386245799906,1.9973226670008444,6,-1,3,+$5 (20% accuracy),0.04037107899868753,,,,,,,,,,,,XXX000,no,practice,no,2023-06-29_21h53.25.151,MID,None,
2,4,7.676222329239526,0,4,8.1,1,4,9.214291069328032,67.99386245799906,3.9925243750003574,6,-1,3,+$5 (20% accuracy),,0,0,0.28357151782213386,$0,-5,,,,,,,XXX000,no,practice,no,2023-06-29_21h53.25.151,MID,None,
2,4,7.676222329239526,0,4,8.1,1,4,9.214291069328032,67.99386245799906,6.002197375000833,6,-1,3,+$5 (20% accuracy),,,,,,,,,,,,,XXX000,no,practice,no,2023-06-29_21h53.25.151,MID,None,
2,4,7.676222329239526,0,4,8.1,1,4,9.214291069328032,67.99386245799906,7.997385792001296,6,-1,3,+$5 (20% accuracy),,,,,,,77.99300266700084,78.00482083300085,9.994014500000048,,,,XXX000,no,practice,no,2023-06-29_21h53.25.151,MID,None,
2,4,7.676222329239526,1,4,6.928355041520073,1,4,9.214291069328032,77.99372033300097,0.004248124998412095,7,-1,8,$0 (50% accuracy),,,,,,,,,,,,,XXX000,no,practice,no,2023-06-29_21h53.25.151,MID,None,
2,4,7.676222329239526,1,4,6.928355041520073,1,4,9.214291069328032,77.99372033300097,1.9978377919978811,7,-1,8,$0 (50% accuracy),0.028614119357563833,,,,,,,,,,,,XXX000,no,practice,no,2023-06-29_21h53.25.151,MID,None,
2,4,7.676222329239526,1,4,6.928355041520073,1,4,9.214291069328032,77.99372033300097,3.9994615420000628,7,-1,8,$0 (50% accuracy),,,0,0.24547258402533456,$0,-5,,,,0,,,XXX000,no,practice,no,2023-06-29_21h53.25.151,MID,None,
2,4,7.676222329239526,1,4,6.928355041520073,1,4,9.214291069328032,77.99372033300097,6.002068166999379,7,-1,8,$0 (50% accuracy),,,,,,,,,,,,,XXX000,no,practice,no,2023-06-29_21h53.25.151,MID,None,
2,4,7.676222329239526,1,4,6.928355041520073,1,4,9.214291069328032,77.99372033300097,7.997831708999001,7,-1,8,$0 (50% accuracy),,,,,,,,,,,,,XXX000,no,practice,no,2023-06-29_21h53.25.151,MID,None,
2,4,7.676222329239526,1,4,6.928355041520073,1,4,9.214291069328032,77.99372033300097,9.999980041997333,7,-1,8,$0 (50% accuracy),,,,,,,89.99300158299957,90.00482083300085,11.99549104199832,,,,XXX000,no,practice,no,2023-06-29_21h53.25.151,MID,None,
2,4,7.676222329239526,2,4,7.547623557659293,1,4,9.214291069328032,89.99373079200086,0.005221082999923965,8,-1,5,-$5 (50% accuracy),,,,,,,,,,,,,XXX000,no,practice,no,2023-06-29_21h53.25.151,MID,None,
2,4,7.676222329239526,2,4,7.547623557659293,1,4,9.214291069328032,89.99373079200086,1.9946408329997212,8,-1,5,-$5 (50% accuracy),0.03896919077187469,,,,,,,,,,,,XXX000,no,practice,no,2023-06-29_21h53.25.151,MID,None,
2,4,7.676222329239526,2,4,7.547623557659293,1,4,9.214291069328032,89.99373079200086,3.9944946659998095,8,-1,5,-$5 (50% accuracy),,,1,0.2557937259609882,$0,-5,,,,1,0.20327049999832525,,XXX000,no,practice,no,2023-06-29_21h53.25.151,MID,None,
2,4,7.676222329239526,2,4,7.547623557659293,1,4,9.214291069328032,89.99373079200086,5.998510499997792,8,-1,5,-$5 (50% accuracy),,,,,,,,,,,,,XXX000,no,practice,no,2023-06-29_21h53.25.151,MID,None,
2,4,7.676222329239526,2,4,7.547623557659293,1,4,9.214291069328032,89.99373079200086,7.997254915997473,8,-1,5,-$5 (50% accuracy),,,,,,,99.9952019170014,100.00482083300085,9.996771916998114,,,,XXX000,no,practice,no,2023-06-29_21h53.25.151,MID,None,
2,4,7.676222329239526,2,4,7.547623557659293,2,4,9.80541834856826,99.9959703329987,0.004032042001199443,9,-1,9,$0 (20% accuracy),,,,,,,,,,,,,XXX000,no,practice,no,2023-06-29_21h53.25.151,MID,None,
2,4,7.676222329239526,2,4,7.547623557659293,2,4,9.80541834856826,99.9959703329987,1.9998732500025653,9,-1,9,$0 (20% accuracy),0.0022413189111171795,,,,,,,,,,,,XXX000,no,practice,no,2023-06-29_21h53.25.151,MID,None,
2,4,7.676222329239526,2,4,7.547623557659293,2,4,9.80541834856826,99.9959703329987,3.9959786250001343,9,-1,9,$0 (20% accuracy),,1,1,0.29342363914280434,$0,-5,,,,,0.2844607909974002,,XXX000,no,practice,no,2023-06-29_21h53.25.151,MID,None,
2,4,7.676222329239526,2,4,7.547623557659293,2,4,9.80541834856826,99.9959703329987,5.999033874999441,9,-1,9,$0 (20% accuracy),,,,,,,,,,,,,XXX000,no,practice,no,2023-06-29_21h53.25.151,MID,None,
2,4,7.676222329239526,2,4,7.547623557659293,2,4,9.80541834856826,99.9959703329987,7.997337042001163,9,-1,9,$0 (20% accuracy),,,,,,,109.99340304200086,110.00482083300085,9.993873082999926,,,,XXX000,no,practice,no,2023-06-29_21h53.25.151,MID,None,
