high.thisTrialN,high.stepSize,high.intensity,medium.thisTrialN,medium.stepSize,medium.intensity,low.thisTrialN,low.stepSize,low.intensity,time.onset,true_trialN,cue.type,cue.accuracy,jitter,low.response,Trial.rewardType,Total_Earned,time.global,time.nominal,time.trial,time.plannedfixlength,time.actualfixlength,medium.response,Target_Resp.rt,high.response,participant,fMRI? (yes/no),Task number (1/2/test),date,expName,frameRate,
-1,4,None,-1,4,None,0,4,8.1,12.00955987488851,0,-$5,20,0.026822620352306488,0,-5,-5,21.99557983293198,22.006598375039175,9.973951166961342,1.9956630421802402,1.9846920419950038,,,,XXX000,no,1,2023-06-23_13h48.56.363,MID,None,
-1,4,None,0,4,8.1,0,4,8.1,21.99619354098104,1,+$5,50,0.0029018045658346816,,+5,0,31.99695612490177,32.006598375039175,9.994205167051405,2.0125393751077354,2.002939875004813,1,0.2455318330321461,,XXX000,no,1,2023-06-23_13h48.56.363,MID,None,
0,4,8.1,0,4,8.1,0,4,8.1,31.99754454102367,2,$0,80,0.011363725885588094,,0,0,41.998090457869694,42.006598375039175,9.994948125211522,2.0131432921625674,2.0046823751181364,,0.2552824590820819,1,XXX000,no,1,2023-06-23_13h48.56.363,MID,None,
1,4,6.983433000772875,0,4,8.1,0,4,8.1,41.998695333022624,3,+$5,80,0.00021253657039132514,,+5,5,52.00664408295415,52.006598375039175,10.003230875125155,2.0238395421765745,2.023912417003885,,0.2414848750922829,1,XXX000,no,1,2023-06-23_13h48.56.363,MID,None,
1,4,6.983433000772875,0,4,8.1,1,4,9.214291069328032,52.00701491604559,4,+$5,20,0.03425533139609461,1,+5,10,61.99503745790571,62.006598375039175,9.984351833118126,1.9938642501365393,1.9823445831425488,,0.24701470788568258,,XXX000,no,1,2023-06-23_13h48.56.363,MID,None,
2,4,6.386889909154405,0,4,8.1,1,4,9.214291069328032,61.99560062494129,5,-$5,80,0.04037107899868753,,-5,5,71.99529975000769,72.00659837503918,9.995926125207916,2.0182130839675665,2.006956374971196,,,0,XXX000,no,1,2023-06-23_13h48.56.363,MID,None,
2,4,6.386889909154405,0,4,8.1,2,4,8.52158143045583,71.99587745801546,6,+$5,20,0.028614119357563833,1,+5,10,82.00637616589665,82.00659837503918,10.006444333819672,2.0230843340978026,2.022915459005162,,0.24803712498396635,,XXX000,no,1,2023-06-23_13h48.56.363,MID,None,
2,4,6.386889909154405,1,4,6.928355041520073,2,4,8.52158143045583,82.00708495802246,7,$0,50,0.03896919077187469,,0,10,92.00807379093021,92.00659837503918,9.99677158286795,1.9948373751249164,1.9963529999367893,0,,,XXX000,no,1,2023-06-23_13h48.56.363,MID,None,
2,4,6.386889909154405,2,4,7.547623557659293,2,4,8.52158143045583,92.00865974999033,8,+$5,50,0.0022413189111171795,,+5,15,101.99445529095829,102.00659837503918,9.981321916915476,1.977135084103793,1.9650354590266943,1,0.2407775002066046,,XXX000,no,1,2023-06-23_13h48.56.363,MID,None,
3,4,6.813470091634942,2,4,7.547623557659293,2,4,8.52158143045583,101.99503604089841,9,$0,80,0.022798604894392047,,0,15,111.9970326658804,112.00659837503918,9.997704667039216,2.010855584172532,2.001340541988611,,0.20989154186099768,1,XXX000,no,1,2023-06-23_13h48.56.363,MID,None,
3,4,6.813470091634942,2,4,7.547623557659293,3,4,8.166317086217399,111.9976546249818,10,$0,20,0.028232854843272155,1,0,15,121.99697562493384,122.00659837503918,9.99537712498568,2.0150052499957383,2.005428582895547,,0.23858041688799858,,XXX000,no,1,2023-06-23_13h48.56.363,MID,None,
3,4,6.813470091634942,3,4,7.254707612936352,3,4,8.166317086217399,121.99761050008237,11,$0,50,0.03191675570952586,,0,15,132.00807791599073,132.00659837503918,10.006562208058313,2.00979870907031,2.011323458980769,1,0.2163049578666687,,XXX000,no,1,2023-06-23_13h48.56.363,MID,None,
3,4,6.813470091634942,4,4,7.087548041041526,3,4,8.166317086217399,132.0086979160551,12,-$5,50,0.04114158667987698,,0,15,141.99500837503,142.00659837503918,9.982288124971092,2.0091019170358777,1.9975601250771433,1,0.2041628749575466,,XXX000,no,1,2023-06-23_13h48.56.363,MID,None,
4,4,6.70064050170511,4,4,7.087548041041526,3,4,8.166317086217399,141.99559562490322,13,-$5,80,0.007857081890473789,,0,15,152.00907904095948,152.00659837503918,10.00916041713208,2.010031667072326,2.0125642500352114,,0.22781837498769164,1,XXX000,no,1,2023-06-23_13h48.56.363,MID,None,
4,4,6.70064050170511,4,4,7.087548041041526,4,4,7.978593398764313,152.00977954105474,14,$0,20,0.012811614326107995,1,0,15,161.99431362492032,162.00659837503918,9.979931083973497,2.009312084177509,1.997072417056188,,0.25572916702367365,,XXX000,no,1,2023-06-23_13h48.56.363,MID,None,
5,4,6.628625141493604,4,4,7.087548041041526,4,4,7.978593398764313,161.9948454159312,15,+$5,80,0.02068911602918594,,0,15,171.9947617498692,172.00659837503918,9.994793167104945,1.9967263340950012,1.9849387500435114,,,0,XXX000,no,1,2023-06-23_13h48.56.363,MID,None,
5,4,6.628625141493604,5,4,6.986627586747308,4,4,7.978593398764313,171.99549550004303,16,-$5,50,0.02605502092055294,,-5,10,181.99534354102798,182.00659837503918,9.995819041971117,2.0094878340605646,1.9982759589329362,0,,,XXX000,no,1,2023-06-23_13h48.56.363,MID,None,
6,4,6.753515598520358,5,4,6.986627586747308,4,4,7.978593398764313,181.9959158329293,17,-$5,80,0.0290250182434738,,-5,5,191.99642954091541,192.00659837503918,9.996509999968112,2.0113613749854267,2.001231457805261,,,0,XXX000,no,1,2023-06-23_13h48.56.363,MID,None,
7,4,6.839069884466689,5,4,6.986627586747308,4,4,7.978593398764313,191.99696091585793,18,$0,80,0.008106598926879417,,0,5,201.9979656659998,202.00659837503918,9.997282957891002,2.0118755840230733,2.0032912499736995,,,0,XXX000,no,1,2023-06-23_13h48.56.363,MID,None,
7,4,6.839069884466689,5,4,6.986627586747308,5,4,7.799490725921181,201.99854470789433,19,-$5,20,0.03985669463460402,1,0,5,211.99558341596276,212.00659837503918,9.993622750043869,2.023934709141031,2.012972209136933,,0.20604870887473226,,XXX000,no,1,2023-06-23_13h48.56.363,MID,None,
7,4,6.839069884466689,6,4,7.05990615624322,5,4,7.799490725921181,211.99637858290225,20,-$5,50,0.006365991307594288,,-5,0,221.995704916073,222.00659837503918,9.995069249998778,2.001567458966747,1.990742166992277,0,,,XXX000,no,1,2023-06-23_13h48.56.363,MID,None,
7,4,6.839069884466689,6,4,7.05990615624322,6,4,6.806671936810164,221.99662812496535,21,$0,20,0.012059794645758255,0,0,0,232.0089220830705,232.00659837503918,10.006779249990359,2.0087304171174765,2.0112023749388754,,,,XXX000,no,1,2023-06-23_13h48.56.363,MID,None,
7,4,6.839069884466689,6,4,7.05990615624322,7,4,7.303709738195757,232.01085062487982,22,-$5,20,0.04772463093327539,1,0,0,242.0013512498699,242.00659837503918,9.985167457954958,2.0079321251250803,2.002789207966998,,0.19357879203744233,,XXX000,no,1,2023-06-23_13h48.56.363,MID,None,
7,4,6.839069884466689,6,4,7.05990615624322,8,4,6.923656905322966,242.0022822499741,23,+$5,20,0.04361661918584971,1,+5,5,251.99910520785488,252.00659837503918,9.993070125114173,2.007774041965604,2.000346457818523,,0.1935517080128193,,XXX000,no,1,2023-06-23_13h48.56.363,MID,None,
8,4,6.912675922146677,6,4,7.05990615624322,8,4,6.923656905322966,252.00014333287254,24,-$5,80,0.0053577455976814075,,-5,0,262.00899624987505,262.0065983750392,10.003081042086706,2.016640042187646,2.0191577500663698,,,0,XXX000,no,1,2023-06-23_13h48.56.363,MID,None,
8,4,6.912675922146677,6,4,7.05990615624322,9,4,6.726281618824514,262.01066091586836,25,$0,20,0.03184063183270359,0,0,0,271.9955390829127,272.0065983750392,9.979422040982172,2.0088367089629173,1.9978068338241428,,,,XXX000,no,1,2023-06-23_13h48.56.363,MID,None,
8,4,6.912675922146677,7,4,7.1142216969891745,9,4,6.726281618824514,271.9959568330087,26,+$5,50,0.04052736168954532,,+5,5,281.9949356659781,282.0065983750392,9.99601695779711,2.0066244590561837,1.995031625032425,1,0.20372454193420708,,XXX000,no,1,2023-06-23_13h48.56.363,MID,None,
8,4,6.912675922146677,8,4,7.067318037642616,9,4,6.726281618824514,281.9958138749935,27,$0,50,0.02401581760783894,,0,5,292.00150999985635,292.0065983750392,10.000052041141316,2.0212192500475794,2.0162319580558687,0,,,XXX000,no,1,2023-06-23_13h48.56.363,MID,None,
9,4,6.978424585003373,8,4,7.067318037642616,9,4,6.726281618824514,292.0025640828535,28,+$5,80,0.023987050937648705,,0,5,301.99572391598485,302.0065983750392,9.986002709018067,1.9979956671595573,1.987182583194226,,,0,XXX000,no,1,2023-06-23_13h48.56.363,MID,None,
9,4,6.978424585003373,8,4,7.067318037642616,10,4,6.768877320204298,301.9966053329408,29,-$5,20,0.03936087504886124,0,-5,0,311.99909541592933,312.0065983750392,9.996133332839236,2.0134720420464873,2.006035750033334,,,,XXX000,no,1,2023-06-23_13h48.56.363,MID,None,
9,4,6.978424585003373,9,4,7.1020516946369465,10,4,6.768877320204298,312.0000017499551,30,$0,50,0.046472062123201395,,0,0,322.0056574579794,322.0065983750392,10.000146165955812,2.0147157090250403,2.0139893339946866,0,,,XXX000,no,1,2023-06-23_13h48.56.363,MID,None,
